File: AFM Rheology Data/Rheology_results_allChrms.txt
	Filename	Contact Point [nm]	Oscillation Frequency [Hz]	Force Amplitude [N]	Phase Delta [deg]	Indentation Amplitude [m]	Force Phase [deg]	Young Modulus [Pa]	Storage Modulus E' [Pa]	Loss Modulus E'' [Pa]	Shear Storage G' [Pa]	Shear Loss G'' [Pa]	Loss Tan
8	Chromosome3	8676.43	20.0	4.92179e-11	27.6082	9.68153e-09	24.8467	2572.44	2279.54	1192.13	759.846	397.377	0.52297
12	Chromosome3	9626.87	20.0	9.63637e-11	12.132	9.31285e-09	9.46785	4514.42	4413.6	948.771	1471.2	316.257	0.214965
16	Chromosome3	8965.32	20.0	9.61844e-11	11.1529	9.31184e-09	8.55832	4731.5	4642.15	915.205	1547.38	305.068	0.197151
18	Chromosome3	8972.34	20.0	1.28421e-10	19.3138	9.11196e-09	15.7162	6277.22	5923.94	2076.14	1974.65	692.045	0.350465
27	Chromosome16	5294.28	200.0	5.65481e-11	23.329	9.19573e-09	3.48244	2961.18	2719.1	1172.66	906.365	390.886	0.431267
31	Chromosome16	5092.32	200.0	3.4192e-11	29.2069	9.36057e-09	9.62363	1779.91	1553.62	868.534	517.872	289.511	0.55904
33	Chromosome16	4743.18	200.0	6.04108e-11	22.5357	9.16398e-09	2.61579	3965.43	3662.64	1519.79	1220.88	506.596	0.414944
37	Chromosome16	4763.71	200.0	6.11678e-11	24.4219	9.16037e-09	4.27293	3136.51	2855.88	1296.8	951.959	432.267	0.454082
39	Chromosome16	5040.1	200.0	8.42014e-11	20.0955	8.98149e-09	359.795	4142.35	3890.17	1423.25	1296.72	474.418	0.365859
41	Chromosome16	4649.97	200.0	6.52573e-11	25.9308	9.12924e-09	5.52496	3230.83	2905.56	1412.8	968.519	470.932	0.486239
43	Chromosome16	4013.68	200.0	7.39013e-11	21.1394	9.05783e-09	0.788414	3927.43	3663.13	1416.38	1221.04	472.128	0.386659
45	Chromosome16	3715.26	200.0	1.54742e-10	17.0195	8.46986e-09	355.739	8631.18	8253.18	2526.32	2751.06	842.106	0.306103
47	Chromosome16	4082.12	200.0	8.10237e-11	21.3793	8.99706e-09	0.650732	4025.76	3748.74	1467.55	1249.58	489.185	0.39148
49	Chromosome16	2303.05	200.0	1.97727e-10	16.816	8.16151e-09	354.848	23212.1	22219.5	6715.24	7406.5	2238.41	0.302223
62	Chromosome4	8875.85	20.0	9.57046e-11	23.9667	9.35896e-09	20.5195	4642.81	4242.51	1885.94	1414.17	628.645	0.444533
64	Chromosome4	8910.55	20.0	1.34881e-10	18.5543	9.06314e-09	14.9322	6629.17	6284.6	2109.42	2094.87	703.14	0.335649
67	Chromosome4	9511.09	20.0	9.13973e-11	21.393	9.37746e-09	18.1755	4257.19	3963.87	1552.87	1321.29	517.622	0.391755
77	Chromosome7	8809.42	20.0	5.83308e-11	24.1611	9.61161e-09	21.3473	2777.11	2533.83	1136.68	844.61	378.894	0.448602
81	Chromosome7	8837.52	20.0	3.67505e-11	21.4088	9.75112e-09	19.0383	1864.31	1735.67	680.507	578.556	226.836	0.392072
87	Chromosome7	9211.16	20.0	5.00377e-11	23.8393	9.66614e-09	21.1849	2313.12	2115.77	934.9	705.257	311.633	0.441872
90	Chromosome7	8768.62	20.0	1.46633e-10	12.6537	8.95443e-09	9.47996	7304.12	7126.72	1600.03	2375.57	533.344	0.224512
92	Chromosome7	9044.18	20.0	5.52352e-11	28.4752	9.64522e-09	25.5503	2524.62	2219.2	1203.68	739.734	401.228	0.542395
102	Chromosome6	8712.15	2.0	3.10475e-11	13.4426	9.78007e-09	12.9606	1417.54	1378.71	329.538	459.569	109.846	0.239019
108	Chromosome6	10003.6	2.0	2.98153e-11	9.86579	9.78612e-09	9.47374	1326.39	1306.77	227.264	435.591	75.7548	0.173913
110	Chromosome6	8821.74	2.0	5.74682e-11	10.0694	9.5873e-09	9.46965	2719.95	2678.06	475.557	892.686	158.519	0.177575
112	Chromosome6	8805.19	2.0	5.03562e-11	11.7562	9.64046e-09	11.1478	2367.5	2317.84	482.374	772.613	160.791	0.208114
132	Chromosome20	3979.88	2.0	8.43773e-11	18.9456	9.41605e-09	17.6113	4062.11	3842.05	1318.84	1280.68	439.615	0.343266
135	Chromosome20	3839.07	2.0	1.18468e-10	16.0103	9.16657e-09	14.4533	5823.81	5597.92	1606.26	1865.97	535.421	0.28694
137	Chromosome20	4331.62	2.0	6.11256e-11	18.0569	9.57545e-09	17.0788	3343.71	3179.03	1036.42	1059.68	345.474	0.326018
142	Chromosome20	4118.68	2.0	9.77853e-11	18.7976	9.32223e-09	17.2917	4838.89	4580.8	1559.21	1526.93	519.738	0.34038
156	Chromosome14	2293.52	2.0	1.29377e-10	11.0463	9.07208e-09	9.82051	9865.37	9682.59	1890.22	3227.53	630.074	0.195219
161	Chromosome14	3350.67	2.0	5.95301e-11	23.4742	9.60055e-09	22.2946	2948.5	2704.48	1174.5	901.493	391.499	0.434278
163	Chromosome14	2901.89	2.0	4.84748e-11	27.7888	9.68633e-09	26.6554	3131.91	2770.71	1460.14	923.57	486.712	0.52699
167	Chromosome14	3528.32	2.0	3.97456e-11	25.6223	9.73826e-09	24.7168	2496.41	2250.92	1079.54	750.308	359.846	0.479598
172	Chromosome14	3157.91	2.0	7.36364e-11	25.7426	9.51379e-09	24.2165	3682.35	3316.89	1599.35	1105.63	533.116	0.482183
185	Chromosome5	8194.27	2.0	1.83588e-10	18.0374	8.71777e-09	15.4781	9544.07	9075.03	2955.2	3025.01	985.067	0.325641
187	Chromosome5	8197.09	2.0	4.48996e-11	10.757	9.67843e-09	10.2273	2228.66	2189.49	415.966	729.831	138.655	0.189983
193	Chromosome5	8756.02	2.0	6.78175e-11	8.26264	9.51046e-09	7.676	3153.68	3120.95	453.219	1040.32	151.073	0.145218
208	Chromosome12	8076.36	200.0	1.23094e-10	8.88953	8.7145e-09	349.834	11919.7	11776.5	1841.94	3925.49	613.981	0.156409
210	Chromosome12	7873.7	200.0	8.09475e-11	14.7229	9.0231e-09	355.468	5745.45	5556.8	1460.17	1852.27	486.723	0.262771
212	Chromosome12	8470.85	200.0	6.81449e-11	11.4052	9.1154e-09	352.498	4399.67	4312.8	870.019	1437.6	290.006	0.20173
216	Chromosome12	9322.67	200.0	4.86969e-11	21.363	9.27141e-09	2.37434	2465.97	2296.54	898.293	765.514	299.431	0.391151
224	Chromosome12	9307.87	200.0	3.9709e-10	13.9589	6.75262e-09	351.245	25778.4	25017.1	6218.43	8339.05	2072.81	0.248567
226	Chromosome9	8934.28	2.0	7.67655e-11	8.26864	9.44583e-09	7.62787	3650.53	3612.59	525.0	1204.2	175.0	0.145325
231	Chromosome9	8924.86	2.0	2.03071e-10	5.0383	8.5232e-09	4.11191	10614.5	10573.5	932.185	3524.5	310.728	0.0881623
233	Chromosome9	9261.07	2.0	4.70501e-11	9.89946	9.66213e-09	9.38237	2194.98	2162.29	377.36	720.765	125.787	0.174518
235	Chromosome9	9585.03	2.0	2.88769e-11	9.03931	9.79237e-09	8.67161	1304.97	1288.76	205.026	429.587	68.342	0.159088
237	Chromosome9	9624.3	2.0	3.31779e-11	7.10904	9.76026e-09	6.75927	1509.27	1497.67	186.785	499.223	62.2616	0.124717
239	Chromosome9	9571.33	2.0	1.8225e-10	4.66842	8.67419e-09	3.86915	9132.69	9102.39	743.302	3034.13	247.767	0.0816601
242	Chromosome9	9269.76	2.0	7.58273e-11	9.62279	9.45445e-09	8.91313	3539.9	3490.09	591.732	1163.36	197.244	0.169546
244	Chromosome9	8678.79	2.0	3.34517e-11	8.43575	9.759e-09	8.05202	1688.79	1670.52	247.746	556.839	82.5819	0.148305
257	Chromosome14	2215.69	20.0	1.33705e-10	14.1774	9.05222e-09	10.8689	8209.15	7959.12	2010.63	2653.04	670.21	0.25262
262	Chromosome14	3518.91	20.0	8.92667e-11	25.2745	9.40826e-09	21.7783	5072.43	4586.86	2165.71	1528.95	721.902	0.472154
266	Chromosome14	3540.81	20.0	6.91405e-11	29.3481	9.5586e-09	26.0361	3731.09	3252.24	1828.66	1084.08	609.555	0.562279
268	Chromosome14	2898.75	20.0	8.05035e-11	26.5226	9.47214e-09	23.107	4993.51	4467.98	2229.86	1489.33	743.285	0.499075
282	Chromosome12	8228.14	2.0	3.18879e-11	8.08746	9.77007e-09	7.72115	1742.01	1724.69	245.074	574.896	81.6915	0.142098
284	Chromosome12	7681.36	2.0	1.13678e-10	6.39367	9.17555e-09	5.68492	9798.08	9737.14	1091.11	3245.71	363.702	0.112056
286	Chromosome12	8631.82	2.0	5.202e-11	7.29544	9.62382e-09	6.84179	3265.81	3239.37	414.711	1079.79	138.237	0.128022
290	Chromosome12	8499.82	2.0	4.05492e-11	6.22461	9.70631e-09	5.86048	1992.7	1980.96	216.062	660.319	72.0205	0.109069
292	Chromosome12	10293.7	2.0	6.69214e-11	6.0946	9.51472e-09	5.61983	3070.99	3053.63	326.047	1017.88	108.682	0.106774
306	Chromosome18	3400.19	2.0	7.00217e-11	9.38547	9.496e-09	8.7199	3656.5	3607.55	596.286	1202.52	198.762	0.165288
308	Chromosome18	4371.76	2.0	1.02408e-10	14.7447	9.2759e-09	13.4674	5007.17	4842.28	1274.39	1614.09	424.796	0.26318
310	Chromosome18	4394.24	2.0	8.35022e-11	16.4825	9.41461e-09	15.3033	3956.2	3793.63	1122.46	1264.54	374.155	0.295881
312	Chromosome18	4032.08	2.0	1.59036e-10	13.5424	8.86838e-09	11.7977	8638.09	8397.92	2022.74	2799.31	674.248	0.240862
316	Chromosome18	3397.9	2.0	1.12433e-10	15.3695	9.2069e-09	13.9354	6492.48	6260.29	1720.78	2086.76	573.594	0.274873
318	Chromosome18	4212.09	2.0	1.18549e-10	15.0489	9.16244e-09	13.5753	6013.77	5807.53	1561.44	1935.84	520.48	0.268865
322	Chromosome18	3733.89	2.0	9.26644e-11	19.9411	9.36213e-09	18.4308	4518.88	4247.94	1541.18	1415.98	513.728	0.362807
334	Chromosome12	8309.07	20.0	1.56389e-10	6.84265	8.86688e-09	4.24046	8951.27	8887.51	1066.48	2962.5	355.494	0.119998
336	Chromosome12	8356.44	20.0	7.84595e-11	6.6396	9.43231e-09	4.45681	5498.42	5461.54	635.747	1820.51	211.916	0.116404
340	Chromosome12	8503.92	20.0	5.29792e-11	12.729	9.62381e-09	10.4106	2605.19	2541.16	574.028	847.055	191.343	0.225892
342	Chromosome12	9436.51	20.0	5.59213e-11	7.67457	9.59702e-09	5.55353	2677.64	2653.66	357.589	884.553	119.196	0.134753
357	Chromosome5	8114.43	20.0	1.15534e-10	15.0685	9.18485e-09	11.9801	5746.1	5548.52	1493.83	1849.51	497.944	0.269231
361	Chromosome5	8435.69	20.0	8.88907e-11	20.5173	9.39132e-09	17.3855	4320.9	4046.81	1514.43	1348.94	504.811	0.374229
367	Chromosome5	8444.05	20.0	7.89168e-11	22.547	9.46683e-09	19.4446	3782.33	3493.23	1450.3	1164.41	483.435	0.415176
381	Chromosome11	8698.32	200.0	1.32102e-10	23.3126	8.70125e-09	2.52031	6785.49	6231.52	2685.34	2077.17	895.113	0.430928
383	Chromosome11	8764.69	200.0	1.1778e-10	34.0774	8.87474e-09	12.6548	5901.75	4888.31	3306.82	1629.44	1102.27	0.676475
387	Chromosome11	9088.54	200.0	6.45961e-11	29.8469	9.19453e-09	10.167	3366.5	2919.96	1675.45	973.32	558.484	0.573793
392	Chromosome11	8722.49	200.0	2.3114e-10	23.7251	8.02862e-09	1.175	12909.0	11818.1	5193.93	3939.35	1731.31	0.439491
406	Chromosome2	2983.18	200.0	1.71572e-10	26.7388	8.42778e-09	4.15136	9469.0	8456.44	4260.33	2818.81	1420.11	0.503797
412	Chromosome2	3481.54	200.0	1.59219e-10	26.9028	8.5224e-09	4.70262	8574.94	7646.92	3879.97	2548.97	1293.32	0.50739
417	Chromosome2	3280.08	200.0	1.13937e-10	25.7615	8.81918e-09	4.64593	6167.73	5554.72	2680.65	1851.57	893.552	0.48259
433	Chromosome10	9328.87	200.0	7.31285e-11	36.1778	9.16183e-09	15.9899	3554.83	2869.42	2098.39	956.472	699.463	0.731295
437	Chromosome10	9094.44	200.0	9.96007e-11	34.6057	8.98906e-09	13.7393	5044.73	4152.21	2865.03	1384.07	955.011	0.690001
441	Chromosome10	9032.36	200.0	1.71046e-10	38.7214	8.59293e-09	15.6328	8880.5	6928.54	5555.05	2309.51	1851.68	0.801763
458	Chromosome17	2558.51	20.0	2.29714e-10	10.9163	8.34977e-09	7.17028	20173.8	19808.7	3820.41	6602.9	1273.47	0.192865
462	Chromosome17	3767.37	20.0	1.97959e-10	11.7616	8.58215e-09	8.17123	12661.3	12395.5	2580.88	4131.82	860.294	0.208212
466	Chromosome17	3582.56	20.0	1.80019e-10	12.5405	8.7144e-09	9.02427	14245.7	13905.9	3093.17	4635.29	1031.06	0.222437
475	Chromosome9	8973.37	200.0	1.11742e-10	19.5726	8.82071e-09	359.571	5692.23	5363.32	1906.9	1787.77	635.634	0.355545
477	Chromosome9	7625.44	200.0	2.71411e-10	32.0678	7.86143e-09	7.37934	24298.4	20590.9	12900.5	6863.65	4300.18	0.626515
482	Chromosome9	9287.67	200.0	9.26548e-11	33.339	9.03405e-09	12.7371	4576.63	3823.47	2515.27	1274.49	838.425	0.657851
484	Chromosome9	9302.26	200.0	1.19505e-10	24.208	8.80257e-09	3.69106	6073.65	5539.55	2490.5	1846.52	830.168	0.449586
486	Chromosome9	9552.22	200.0	8.35098e-11	36.4598	9.10938e-09	15.983	4079.91	3281.37	2424.52	1093.79	808.173	0.738875
488	Chromosome9	9262.86	200.0	1.43713e-10	37.3439	8.74352e-09	15.1939	7244.03	5759.07	4394.21	1919.69	1464.74	0.763008
491	Chromosome9	8969.93	200.0	2.47627e-10	20.5452	7.8806e-09	358.289	14023.5	13131.5	4921.47	4377.17	1640.49	0.374784
493	Chromosome9	9287.55	200.0	1.35198e-10	34.0104	8.76437e-09	12.3099	6851.82	5679.72	3832.53	1893.24	1277.51	0.674774
501	Chromosome6	8801.24	200.0	1.31567e-10	33.4944	8.78056e-09	11.8894	6698.47	5586.12	3696.59	1862.04	1232.2	0.661746
507	Chromosome6	8795.08	200.0	8.64054e-11	36.2622	9.08994e-09	15.7389	4638.41	3740.03	2743.53	1246.68	914.51	0.733558
509	Chromosome6	9097.15	200.0	1.3373e-10	35.6234	8.78009e-09	13.8523	6701.35	5447.28	3903.24	1815.76	1301.08	0.716548
511	Chromosome6	9150.73	200.0	1.2979e-10	38.0681	8.83688e-09	16.2054	6554.89	5160.52	4041.73	1720.17	1347.24	0.783202
518	Chromosome6	8503.03	200.0	1.51821e-10	36.9797	8.69242e-09	14.6681	8258.22	6597.07	4967.58	2199.02	1655.86	0.752998
533	Chromosome10	9067.13	20.0	1.93992e-11	24.2292	9.87233e-09	22.0787	906.553	826.696	372.039	275.565	124.013	0.450031
536	Chromosome10	9062.93	20.0	8.62208e-11	18.4823	9.4021e-09	15.5258	4129.39	3916.4	1309.07	1305.47	436.356	0.334252
538	Chromosome10	9332.35	20.0	4.67286e-11	19.5446	9.67948e-09	17.0714	2173.85	2048.59	727.241	682.865	242.414	0.354995
552	Chromosome7	8829.54	200.0	1.15687e-10	36.6927	8.90532e-09	15.2949	5942.87	4765.31	3551.0	1588.44	1183.67	0.745178
556	Chromosome7	9150.77	200.0	7.77678e-11	35.5364	9.13903e-09	15.3108	3952.49	3216.32	2297.27	1072.11	765.756	0.714253
561	Chromosome7	8822.15	200.0	9.63838e-11	38.4506	9.03097e-09	17.3841	4787.77	3749.52	2977.22	1249.84	992.408	0.794029
563	Chromosome7	9488.26	200.0	7.49682e-11	35.9296	9.15677e-09	15.7856	3669.93	2971.68	2153.48	990.561	717.827	0.724667
566	Chromosome7	8846.27	200.0	7.6323e-11	37.9163	9.15566e-09	17.5854	3852.37	3039.17	2367.32	1013.06	789.106	0.778936
577	Chromosome13	9301.39	2.0	7.44426e-11	8.04564	9.46219e-09	7.43498	5817.04	5759.78	814.164	1919.93	271.388	0.141353
579	Chromosome13	10221.3	2.0	9.67722e-11	7.43351	9.29981e-09	6.73368	4739.03	4699.2	613.114	1566.4	204.371	0.130472
581	Chromosome13	10265.4	2.0	9.12431e-11	5.63302	9.3376e-09	5.08311	4499.97	4478.24	441.701	1492.75	147.234	0.0986327
583	Chromosome13	9918.19	2.0	5.80798e-11	9.82718	9.58267e-09	9.2354	2732.44	2692.35	466.365	897.45	155.455	0.173219
587	Chromosome13	10854.7	2.0	9.87015e-11	6.20762	9.28408e-09	5.58564	4669.86	4642.48	504.96	1547.49	168.32	0.108769
591	Chromosome13	9131.79	2.0	7.99063e-11	7.73256	9.42229e-09	7.10534	4090.05	4052.86	550.314	1350.95	183.438	0.135784
593	Chromosome13	9526.06	2.0	9.06802e-11	6.44591	9.3426e-09	5.84437	4941.01	4909.77	554.704	1636.59	184.901	0.112979
608	Chromosome20	4285.24	20.0	8.09223e-11	18.6656	9.44004e-09	15.6824	4183.73	3963.67	1338.98	1321.22	446.327	0.337813
611	Chromosome20	4218.2	20.0	1.09262e-10	18.6993	9.24298e-09	15.3413	6064.68	5744.55	1944.35	1914.85	648.116	0.338468
613	Chromosome20	3729.99	20.0	1.1996e-10	21.9783	9.18429e-09	18.1754	5968.81	5535.03	2233.86	1845.01	744.621	0.403586
618	Chromosome20	3787.31	20.0	1.29973e-10	20.7115	9.10817e-09	16.8796	7145.33	6683.54	2527.04	2227.85	842.347	0.378099
633	Chromosome20	4378.61	200.0	1.16806e-10	21.9257	8.7763e-09	0.907378	6496.59	6026.68	2425.85	2008.89	808.616	0.402518
636	Chromosome20	4353.45	200.0	1.32949e-10	20.7139	8.64723e-09	359.66	7856.27	7348.43	2778.77	2449.48	926.258	0.378145
638	Chromosome20	3861.89	200.0	2.0303e-10	21.3802	8.15542e-09	358.71	11303.6	10525.7	4120.79	3508.58	1373.6	0.391496
643	Chromosome20	4366.13	200.0	1.94903e-10	22.2893	8.22556e-09	359.81	10731.6	9929.72	4070.31	3309.91	1356.77	0.409912
657	Chromosome15	3295.15	2.0	9.10413e-11	12.1698	9.35005e-09	11.1785	4681.64	4576.43	986.932	1525.48	328.977	0.215655
661	Chromosome15	2912.26	2.0	1.16848e-10	14.3781	9.17214e-09	12.977	9724.66	9420.06	2414.82	3140.02	804.941	0.256349
663	Chromosome15	3281.7	2.0	1.34918e-10	13.3259	9.03979e-09	11.8368	7572.81	7368.91	1745.45	2456.3	581.817	0.236867
667	Chromosome15	3405.24	2.0	1.86803e-10	13.2396	8.66845e-09	11.2625	11744.3	11432.2	2689.73	3810.73	896.578	0.235277
682	Chromosome19	3249.42	200.0	1.80807e-10	19.5767	8.29062e-09	357.447	9948.12	9373.06	3333.29	3124.35	1111.1	0.355625
685	Chromosome19	3495.9	200.0	1.85749e-10	18.9608	8.26469e-09	357.11	11689.5	11055.2	3798.16	3685.07	1266.05	0.343563
687	Chromosome19	3830.96	200.0	2.16707e-10	21.6616	8.06553e-09	358.779	12143.3	11285.7	4482.38	3761.91	1494.13	0.397172
692	Chromosome19	3547.13	200.0	1.66909e-10	23.185	8.41997e-09	1.01414	9380.24	8622.68	3693.01	2874.23	1231.0	0.428291
694	Chromosome19	3647.84	200.0	1.80554e-10	19.9841	8.31398e-09	358.031	11153.2	10481.6	3811.72	3493.88	1270.57	0.363656
698	Chromosome19	3502.15	200.0	2.10996e-10	19.2349	8.06934e-09	356.636	11717.1	11063.0	3860.11	3687.67	1286.7	0.348921
707	Chromosome11	8933.5	2.0	5.04178e-11	8.32704	9.63632e-09	7.84246	2356.03	2331.19	341.207	777.062	113.736	0.146366
711	Chromosome11	8866.01	2.0	6.33379e-11	8.74876	9.54341e-09	8.16695	2990.95	2956.15	454.93	985.384	151.643	0.153893
713	Chromosome11	9033.37	2.0	3.77929e-11	10.4321	9.72921e-09	9.96648	1724.35	1695.85	312.228	565.282	104.076	0.184113
718	Chromosome11	8790.56	2.0	1.23944e-10	13.9499	9.12014e-09	12.5197	6032.28	5854.37	1454.22	1951.46	484.739	0.248399
733	Chromosome17	3580.79	200.0	2.09564e-10	16.1421	8.0728e-09	354.177	12241.6	11758.9	3403.4	3919.64	1134.47	0.289432
737	Chromosome17	3929.95	200.0	2.22265e-10	15.343	7.99299e-09	353.603	14976.0	14442.2	3962.58	4814.07	1320.86	0.274375
741	Chromosome17	3873.3	200.0	2.07682e-10	16.6613	8.09893e-09	354.967	14575.1	13963.2	4178.87	4654.38	1392.96	0.299278
756	Chromosome15	3236.8	20.0	1.21776e-10	15.9341	9.14373e-09	12.6057	6094.55	5860.38	1673.15	1953.46	557.716	0.285502
761	Chromosome15	2989.22	20.0	1.74022e-10	15.6313	8.77243e-09	11.7658	13402.3	12906.6	3611.19	4302.19	1203.73	0.279795
763	Chromosome15	3568.65	20.0	1.654e-10	13.0672	8.82168e-09	9.58923	8832.41	8603.7	1996.95	2867.9	665.651	0.232104
767	Chromosome15	3578.33	20.0	1.97839e-10	12.8851	8.58877e-09	9.13932	11698.9	11404.3	2608.81	3801.43	869.604	0.228757
777	Chromosome8	8654.16	20.0	6.25318e-11	20.1172	9.57146e-09	17.3905	2976.98	2795.35	1023.91	931.784	341.302	0.366289
782	Chromosome8	8997.57	20.0	4.97128e-11	23.0289	9.66664e-09	20.3975	2316.34	2131.75	906.142	710.583	302.047	0.425069
786	Chromosome8	8691.14	20.0	7.2374e-11	22.9293	9.51274e-09	19.9261	3462.47	3188.89	1348.96	1062.96	449.654	0.42302
788	Chromosome8	9343.22	20.0	4.76368e-11	23.9664	9.68259e-09	21.3323	2143.5	1958.69	870.689	652.898	290.23	0.444525
793	Chromosome8	8731.08	20.0	9.0813e-11	15.9039	9.36226e-09	13.0338	4352.25	4185.66	1192.63	1395.22	397.542	0.284932
803	Chromosome13	9488.13	20.0	1.33481e-10	8.45854	9.0371e-09	5.84908	8207.2	8117.92	1207.23	2705.97	402.409	0.148711
805	Chromosome13	9146.91	20.0	7.92957e-11	9.93264	9.4312e-09	7.55629	4515.69	4448.01	778.913	1482.67	259.638	0.175115
807	Chromosome13	9134.22	20.0	1.37082e-10	7.07949	9.00787e-09	4.57716	11770.9	11681.1	1450.72	3893.71	483.572	0.124193
811	Chromosome13	8856.08	20.0	8.89232e-11	8.3165	9.35904e-09	5.98348	7417.41	7339.41	1072.86	2446.47	357.621	0.146178
813	Chromosome13	8963.09	20.0	6.88108e-11	9.0124	9.50554e-09	6.75437	4191.17	4139.43	656.539	1379.81	218.846	0.158606
817	Chromosome13	8971.7	20.0	1.571e-10	7.8412	8.86427e-09	5.32359	15263.8	15121.1	2082.41	5040.37	694.138	0.137716
822	Chromosome13	8677.21	20.0	6.2678e-11	9.91541	9.55053e-09	7.65733	4123.85	4062.25	710.102	1354.08	236.701	0.174805
835	Chromosome5	8161.73	200.0	1.92168e-10	19.8243	8.25262e-09	358.49	10617.9	9988.67	3600.93	3329.56	1200.31	0.360501
837	Chromosome5	8468.8	200.0	1.30227e-10	35.6193	8.80745e-09	13.938	6791.97	5521.22	3955.62	1840.41	1318.54	0.716439
843	Chromosome5	8855.49	200.0	1.51715e-10	31.5458	8.6353e-09	9.67228	7730.41	6588.03	4044.39	2196.01	1348.13	0.6139
858	Chromosome17	3909.73	2.0	1.37691e-10	13.2106	9.01956e-09	11.7058	6868.96	6687.19	1569.77	2229.06	523.257	0.234743
862	Chromosome17	3693.86	2.0	1.36899e-10	10.7896	9.01728e-09	9.53064	9183.96	9021.6	1719.27	3007.2	573.088	0.190572
865	Chromosome17	2934.05	2.0	9.75123e-11	68.7049	9.72008e-09	64.7132	5253.8	1908.03	4895.08	636.011	1631.69	2.56551
867	Chromosome17	4404.19	2.0	1.10666e-10	14.1818	9.2155e-09	12.8609	5563.89	5394.32	1363.14	1798.11	454.382	0.2527
877	Chromosome6	8696.5	20.0	4.31745e-11	25.8868	9.71738e-09	23.2707	1978.5	1779.98	863.802	593.326	287.934	0.485288
883	Chromosome6	9331.05	20.0	4.43583e-11	23.3935	9.70387e-09	20.8429	2036.92	1869.49	808.746	623.162	269.582	0.432603
885	Chromosome6	8937.38	20.0	7.87076e-11	20.376	9.46054e-09	17.4046	3705.39	3473.54	1290.14	1157.85	430.047	0.37142
887	Chromosome6	8713.71	20.0	7.30743e-11	25.1536	9.51643e-09	22.0394	3481.2	3151.08	1479.67	1050.36	493.224	0.469576
906	Chromosome14	2301.71	200.0	2.09176e-10	13.6536	8.06932e-09	352.185	17976.9	17468.9	4243.45	5822.95	1414.48	0.242915
911	Chromosome14	2672.01	200.0	1.82938e-10	26.9053	8.34747e-09	3.96385	13646.0	12168.9	6175.02	4056.29	2058.34	0.507444
913	Chromosome14	2815.05	200.0	1.71473e-10	29.599	8.4537e-09	6.57518	13688.8	11902.5	6761.28	3967.5	2253.76	0.568056
917	Chromosome14	3836.06	200.0	1.48578e-10	29.7792	8.60752e-09	7.37597	8964.1	7780.35	4452.1	2593.45	1484.03	0.572224
922	Chromosome14	3157.24	200.0	2.21778e-10	27.9014	8.09306e-09	3.96168	12882.2	11384.7	6028.26	3794.91	2009.42	0.529505
933	Chromosome16	3961.34	20.0	1.0182e-10	14.1195	9.27901e-09	11.1448	4776.69	4632.38	1165.25	1544.13	388.417	0.251544
937	Chromosome16	4576.63	20.0	5.11055e-11	17.277	9.64458e-09	14.7531	2495.34	2382.76	741.097	794.252	247.032	0.311025
939	Chromosome16	4778.88	20.0	4.83589e-11	13.445	9.65814e-09	11.0639	2198.65	2138.4	511.214	712.799	170.405	0.239064
941	Chromosome16	4607.17	20.0	5.15014e-11	12.9883	9.6345e-09	10.6042	2377.07	2316.25	534.249	772.084	178.083	0.230653
943	Chromosome16	3954.19	20.0	5.76713e-11	11.3767	9.58877e-09	8.98712	2766.94	2712.57	545.802	904.191	181.934	0.201212
945	Chromosome16	3348.96	20.0	1.05489e-10	11.5098	9.24561e-09	8.71531	5465.82	5355.91	1090.63	1785.3	363.542	0.203631
947	Chromosome16	3894.45	20.0	5.43814e-11	21.3196	9.63036e-09	18.5712	2505.76	2334.28	911.017	778.094	303.672	0.390277
949	Chromosome16	3118.24	20.0	1.25257e-10	11.9651	9.10517e-09	8.95125	6547.83	6405.57	1357.47	2135.19	452.491	0.211921
953	Chromosome7	8876.88	2.0	3.91453e-11	10.7787	9.71979e-09	10.2933	1787.29	1755.76	334.253	585.253	111.418	0.190375
957	Chromosome7	9423.2	2.0	3.95558e-11	10.1697	9.71632e-09	9.69949	1800.39	1772.11	317.884	590.702	105.961	0.179382
962	Chromosome7	8823.94	2.0	3.61157e-11	10.9352	9.74163e-09	10.4697	1744.97	1713.29	331.02	571.096	110.34	0.193208
965	Chromosome7	9384.35	2.0	9.29946e-11	10.324	9.33202e-09	9.44651	4337.41	4267.19	777.327	1422.4	259.109	0.182164
967	Chromosome7	9095.03	2.0	3.83212e-11	13.5819	9.72848e-09	13.0268	1744.17	1695.39	409.593	565.131	136.531	0.241592
983	Chromosome19	3566.11	20.0	1.32182e-10	17.4912	9.07669e-09	13.8896	6507.82	6206.92	1955.98	2068.97	651.994	0.315129
986	Chromosome19	3566.93	20.0	1.05408e-10	16.6603	9.26158e-09	13.4834	5404.59	5177.72	1549.48	1725.91	516.494	0.29926
991	Chromosome19	2743.25	20.0	1.32511e-10	18.5248	9.07928e-09	14.8331	8007.4	7592.51	2544.07	2530.84	848.024	0.335077
993	Chromosome19	3888.79	20.0	8.11581e-11	18.1048	9.43686e-09	15.1469	4126.82	3922.5	1282.44	1307.5	427.478	0.326943
997	Chromosome19	3540.69	20.0	1.16459e-10	20.0957	9.19879e-09	16.5026	5819.82	5465.51	1999.62	1821.84	666.541	0.365862
1008	Chromosome3	8987.61	200.0	1.29322e-10	38.0326	8.84186e-09	16.3279	6771.27	5333.46	4171.84	1777.82	1390.61	0.782202
1012	Chromosome3	8990.17	200.0	1.61096e-10	23.1499	8.50187e-09	2.03454	8535.65	7848.35	3355.69	2616.12	1118.56	0.427566
1016	Chromosome3	8995.76	200.0	1.3516e-10	22.9486	8.69439e-09	5.29783	7081.77	6521.28	2761.22	2173.76	920.405	0.423416
1018	Chromosome3	8989.28	200.0	2.35696e-10	33.4765	8.12218e-09	9.38085	12901.6	10761.3	7116.43	3587.12	2372.14	0.661296
1032	Chromosome15	3119.68	200.0	1.40786e-10	15.5048	8.56245e-09	354.596	8516.08	8206.17	2276.51	2735.39	758.837	0.277415
1036	Chromosome15	2876.95	200.0	1.87019e-10	19.1422	8.26507e-09	357.143	20347.1	19222.0	6672.09	6407.34	2224.03	0.347107
1038	Chromosome15	3977.55	200.0	1.6332e-10	17.977	8.41424e-09	356.46	8766.2	8338.24	2705.56	2779.41	901.854	0.324477
1042	Chromosome15	3939.37	200.0	3.72853e-10	14.4442	6.89703e-09	351.213	25779.8	24964.9	6430.42	8321.63	2143.47	0.257578
1061	Chromosome4	8944.39	200.0	1.9065e-10	35.2618	8.43602e-09	12.1413	10174.9	8308.03	5874.1	2769.34	1958.03	0.70704
1063	Chromosome4	9224.31	200.0	1.92093e-10	35.9594	8.43169e-09	12.6725	10077.6	8157.15	5917.68	2719.05	1972.56	0.72546
1066	Chromosome4	8624.8	200.0	2.30886e-10	36.8693	8.19053e-09	12.4255	13088.1	10470.5	7852.75	3490.18	2617.58	0.749985
1068	Chromosome4	8923.55	200.0	2.35163e-10	38.4629	8.18949e-09	13.7306	12858.1	10068.0	7997.85	3356.01	2665.95	0.794381
1077	Chromosome8	9382.04	200.0	1.24847e-10	34.8261	8.83634e-09	13.3452	6164.21	5060.13	3520.3	1686.71	1173.43	0.695694
1082	Chromosome8	8728.77	200.0	1.02547e-10	34.9671	8.98077e-09	13.9962	5302.03	4344.92	3038.62	1448.31	1012.87	0.699352
1086	Chromosome8	8703.54	200.0	1.3972e-10	33.9206	8.73823e-09	12.1045	7301.63	6058.98	4074.63	2019.66	1358.21	0.672495
1088	Chromosome8	8735.01	200.0	1.3835e-10	38.1826	8.77985e-09	15.9777	7025.8	5522.59	4343.14	1840.86	1447.71	0.786432
1093	Chromosome8	8755.78	200.0	1.3985e-10	31.3352	8.70352e-09	9.75325	7240.08	6184.04	3765.16	2061.35	1255.05	0.608852
1108	Chromosome19	3543.57	2.0	8.39219e-11	17.2259	9.41387e-09	15.9955	3977.42	3799.01	1177.87	1266.34	392.623	0.310046
1111	Chromosome19	3873.76	2.0	6.80774e-11	15.7599	9.52149e-09	14.7985	3286.28	3162.74	892.574	1054.25	297.525	0.282215
1116	Chromosome19	2913.74	2.0	9.32552e-11	18.8148	9.35388e-09	17.3671	5097.22	4824.85	1643.9	1608.28	547.968	0.340716
1118	Chromosome19	3873.31	2.0	8.05094e-11	17.5685	9.43881e-09	16.3636	3925.9	3742.78	1185.01	1247.59	395.005	0.316613
1122	Chromosome19	3164.64	2.0	8.21171e-11	19.4613	9.43346e-09	18.1274	4285.97	4041.1	1427.96	1347.03	475.986	0.353359
1132	Chromosome10	9345.76	2.0	3.72813e-11	7.64255	9.73083e-09	7.25688	1724.54	1709.22	229.35	569.739	76.45	0.134184
1135	Chromosome10	8747.71	2.0	3.82055e-10	9.19388	7.23774e-09	6.46057	24001.2	23692.9	3834.81	7897.62	1278.27	0.161855
1137	Chromosome10	8720.75	2.0	3.88508e-11	8.87932	9.72032e-09	8.44962	1930.93	1907.79	298.047	635.931	99.349	0.156226
1141	Chromosome10	9359.15	2.0	7.31394e-11	10.7355	9.47553e-09	9.98557	3382.99	3323.78	630.165	1107.93	210.055	0.189593
1156	Chromosome16	5797.23	2.0	1.42073e-11	4.67571	9.8971e-09	4.44745	1036.21	1032.76	84.4674	344.253	28.1558	0.0817881
1158	Chromosome16	5121.3	2.0	3.799e-11	11.8292	9.72911e-09	11.3187	1884.41	1844.39	386.294	614.795	128.765	0.209443
1162	Chromosome16	4604.68	2.0	3.43298e-11	12.4484	9.75581e-09	11.9533	1667.99	1628.78	359.552	542.926	119.851	0.220749
1164	Chromosome16	4931.04	2.0	5.02071e-11	12.0164	9.64193e-09	11.3925	2298.07	2247.72	478.441	749.239	159.48	0.212856
1166	Chromosome16	4655.12	2.0	2.72549e-11	9.56338	9.80441e-09	9.18708	1251.71	1234.31	207.956	411.437	69.3188	0.16848
1168	Chromosome16	4292.39	2.0	1.1044e-11	11.8006	9.92168e-09	11.5203	568.314	556.303	116.224	185.434	38.7412	0.208922
1170	Chromosome16	3609.08	2.0	9.76966e-11	11.3052	9.30038e-09	10.3156	4996.96	4900.0	979.577	1633.33	326.526	0.199914
1172	Chromosome16	4018.27	2.0	5.45522e-11	12.6039	9.61173e-09	11.9168	2538.19	2477.02	553.856	825.675	184.619	0.223597
1174	Chromosome16	2377.1	2.0	1.31765e-10	9.89348	9.05186e-09	8.75658	11523.2	11351.8	1979.87	3783.93	659.958	0.174411
1176	Chromosome9	9215.5	20.0	8.00119e-11	11.2646	9.42849e-09	8.78763	3739.41	3667.37	730.458	1222.46	243.486	0.199178
1181	Chromosome9	8914.76	20.0	2.04831e-10	7.95864	8.51848e-09	4.94613	10682.6	10579.7	1479.09	3526.56	493.03	0.139805
1183	Chromosome9	9284.83	20.0	6.65691e-11	15.4244	9.53213e-09	12.8688	3129.83	3017.1	832.43	1005.7	277.477	0.275904
1185	Chromosome9	9308.06	20.0	3.92741e-11	18.6613	9.72956e-09	16.3258	1811.5	1716.26	579.629	572.087	193.21	0.337728
1187	Chromosome9	9546.94	20.0	4.52493e-11	19.442	9.68916e-09	17.0052	2076.4	1958.01	691.137	652.669	230.379	0.35298
1189	Chromosome9	8913.08	20.0	2.31192e-10	6.88314	8.32428e-09	3.89664	12331.8	12242.9	1477.9	4080.97	492.633	0.120715
1192	Chromosome9	8928.09	20.0	8.7921e-11	18.1611	9.39004e-09	15.1895	4210.08	4000.35	1312.24	1333.45	437.412	0.328031
1194	Chromosome9	9197.88	20.0	4.77005e-11	22.0943	9.67812e-09	19.5309	2214.92	2052.27	833.105	684.091	277.702	0.405942
1203	Chromosome13	9433.1	200.0	1.62931e-10	11.8287	8.44263e-09	352.229	12266.2	12005.7	2514.41	4001.92	838.135	0.209434
1205	Chromosome13	9038.26	200.0	1.01517e-10	13.6172	8.88628e-09	354.276	6526.02	6342.58	1536.44	2114.19	512.147	0.242242
1207	Chromosome13	9099.36	200.0	1.74068e-10	12.059	8.36653e-09	352.265	18008.0	17610.7	3762.21	5870.22	1254.07	0.213633
1211	Chromosome13	9506.18	200.0	1.45139e-10	11.3821	8.57102e-09	352.026	8611.6	8442.23	1699.51	2814.08	566.502	0.20131
1213	Chromosome13	9091.75	200.0	7.64374e-11	20.9369	9.0865e-09	1.4935	4731.38	4418.99	1690.71	1473.0	563.568	0.3826
1217	Chromosome13	10097.0	200.0	1.73073e-10	12.2602	8.37488e-09	352.504	9595.22	9376.38	2037.56	3125.46	679.188	0.217308
1231	Chromosome11	8679.12	20.0	1.00002e-10	11.3115	9.28444e-09	8.66567	4818.93	4725.32	945.199	1575.11	315.066	0.200028
1233	Chromosome11	8732.55	20.0	7.0281e-11	15.5809	9.50619e-09	12.9608	3284.49	3163.79	882.206	1054.6	294.069	0.278845
1237	Chromosome11	9130.49	20.0	4.16962e-11	12.2798	9.70438e-09	10.0958	2040.55	1993.86	433.994	664.62	144.665	0.217665
1242	Chromosome11	8698.15	20.0	1.66066e-10	14.1021	8.82126e-09	10.5782	8448.25	8193.64	2058.42	2731.21	686.139	0.251221
1256	Chromosome18	3425.46	200.0	1.09092e-10	17.298	8.79285e-09	356.553	6143.79	5865.91	1826.8	1955.3	608.934	0.311427
1258	Chromosome18	4344.76	200.0	1.91032e-10	18.0502	8.22611e-09	356.226	10565.6	10045.6	3273.75	3348.55	1091.25	0.325888
1260	Chromosome18	4064.24	200.0	1.6504e-10	19.1963	8.40731e-09	357.537	9050.03	8546.82	2975.7	2848.94	991.899	0.348164
1262	Chromosome18	3009.69	200.0	2.82364e-10	17.5713	7.5732e-09	354.573	45950.3	43806.4	13872.0	14602.1	4624.01	0.316667
1266	Chromosome18	3419.39	200.0	2.07998e-10	19.2167	8.10611e-09	356.814	13416.1	12668.6	4415.82	4222.86	1471.94	0.348565
1268	Chromosome18	4338.68	200.0	2.15947e-10	19.4096	8.05263e-09	356.948	12231.6	11536.4	4064.79	3845.47	1354.93	0.352344
1272	Chromosome18	2601.39	200.0	1.9224e-10	18.6736	8.21041e-09	356.522	17613.5	16686.3	5639.43	5562.09	1879.81	0.337968
1277	Chromosome8	8018.11	2.0	5.48712e-11	7.12244	9.60305e-09	6.65877	2976.37	2953.4	369.04	984.467	123.013	0.124954
1282	Chromosome8	8727.56	2.0	3.75799e-11	8.47729	9.72917e-09	8.06649	1793.86	1774.26	264.445	591.419	88.1485	0.149046
1286	Chromosome8	8712.27	2.0	4.932e-11	9.99616	9.64587e-09	9.45986	2331.31	2295.91	404.673	765.305	134.891	0.176258
1288	Chromosome8	9399.85	2.0	3.17728e-11	14.4762	9.7759e-09	13.9637	1413.91	1369.02	353.446	456.339	117.815	0.258175
1293	Chromosome8	8087.27	2.0	6.12338e-11	9.77513	9.55982e-09	9.15999	3250.13	3202.94	551.812	1067.65	183.937	0.172283
1310	Chromosome3	8979.51	2.0	1.53753e-10	13.4302	8.9056e-09	11.757	7663.31	7453.74	1779.88	2484.58	593.294	0.23879
1312	Chromosome3	10144.6	2.0	7.7894e-11	8.35674	9.43774e-09	7.70441	3571.47	3533.55	519.064	1177.85	173.021	0.146896
1316	Chromosome3	9284.91	2.0	8.17918e-11	10.1323	9.41232e-09	9.3525	3864.37	3804.1	679.828	1268.03	226.609	0.178709
1318	Chromosome3	8061.66	2.0	1.02734e-10	13.5964	9.27013e-09	12.4072	5832.88	5669.42	1371.2	1889.81	457.067	0.241859
1332	Chromosome2	1656.57	2.0	6.01423e-11	16.9619	9.57986e-09	16.04	4710.23	4505.33	1374.14	1501.78	458.048	0.305004
1338	Chromosome2	1737.7	2.0	7.23999e-11	15.9976	9.49157e-09	14.9751	5575.1	5359.19	1536.48	1786.4	512.161	0.286701
1356	Chromosome2	1456.12	20.0	1.00152e-10	23.144	9.32414e-09	19.5801	6821.6	6272.6	2681.18	2090.87	893.728	0.427444
1362	Chromosome2	1717.9	20.0	8.00374e-11	24.2038	9.46594e-09	20.9226	6401.63	5838.88	2624.56	1946.29	874.853	0.449497
1367	Chromosome2	1919.17	20.0	7.30274e-11	20.9323	9.50143e-09	17.9399	4817.64	4499.69	1721.17	1499.9	573.724	0.382509
1387	Chromosome4	8946.5	2.0	6.87286e-11	11.0533	9.50776e-09	10.3232	3262.82	3202.3	625.555	1067.43	208.518	0.195346
1389	Chromosome4	7960.69	2.0	7.84478e-11	12.9147	9.44166e-09	12.0014	4507.51	4393.48	1007.43	1464.49	335.81	0.229301
1392	Chromosome4	8935.11	2.0	6.78145e-11	11.302	9.51469e-09	10.5668	3215.99	3153.62	630.271	1051.21	210.09	0.199856
1406	Chromosome18	3725.73	20.0	1.12796e-10	10.806	9.1913e-09	8.00816	5681.33	5580.59	1065.16	1860.2	355.053	0.190868
1408	Chromosome18	5143.3	20.0	1.2556e-10	14.9077	9.11302e-09	11.6563	5997.08	5795.23	1542.82	1931.74	514.274	0.266223
1410	Chromosome18	4005.95	20.0	1.23457e-10	17.0106	9.13619e-09	13.5886	6284.66	6009.71	1838.57	2003.24	612.857	0.305934
1412	Chromosome18	4022.76	20.0	2.1254e-10	13.9237	8.4888e-09	9.88542	11993.5	11641.1	2886.0	3880.37	962.0	0.247914
1416	Chromosome18	3115.89	20.0	1.54387e-10	15.797	8.91227e-09	12.1231	10503.5	10106.8	2859.38	3368.95	953.127	0.282915
1418	Chromosome18	4020.67	20.0	1.6704e-10	14.7832	8.81769e-09	11.0972	9088.14	8787.31	2318.95	2929.1	772.984	0.263898
1422	Chromosome18	3397.56	20.0	1.41082e-10	16.3896	9.00903e-09	12.809	7633.6	7323.41	2153.95	2441.14	717.983	0.294118